deplacement (mm)	charge (N)

       0	   1.070
 0.02000	   2.139
 0.04000	   3.209
 0.06000	   4.737
 0.08000	   5.960
  0.1000	   7.488
  0.1200	   9.016
  0.1400	  10.39 
  0.1600	  11.92 
  0.1800	  13.29 
  0.2000	  14.52 
  0.2200	  15.74 
  0.2400	  17.27 
  0.2600	  18.80 
  0.2800	  20.48 
  0.3000	  22.46 
  0.3200	  24.60 
  0.3400	  26.44 
  0.3600	  28.42 
  0.3800	  30.56 
  0.4000	  32.70 
  0.4200	  34.84 
  0.4400	  36.98 
  0.4600	  38.81 
  0.4800	  40.65 
  0.5000	  42.18 
  0.5200	  43.86 
  0.5400	  45.54 
  0.5600	  47.22 
  0.5800	  48.90 
  0.6000	  50.73 
  0.6200	  52.11 
  0.6400	  53.94 
  0.6600	  55.93 
  0.6800	  57.46 
  0.7000	  58.99 
  0.7200	  60.67 
  0.7400	  62.35 
  0.7600	  64.03 
  0.7800	  65.71 
  0.8000	  67.24 
  0.8200	  68.77 
  0.8400	  70.60 
  0.8600	  72.43 
  0.8800	  74.11 
  0.9000	  75.95 
  0.9200	  77.78 
  0.9400	  79.77 
  0.9600	  81.45 
  0.9800	  83.28 
   1.000	  85.12 
   1.020	  87.10 
   1.040	  88.94 
   1.060	  90.77 
   1.080	  92.60 
   1.100	  94.74 
   1.120	  96.58 
   1.140	  98.11 
   1.160	 100.2  
   1.180	 102.2  
   1.200	 104.2  
   1.220	 105.9  
   1.240	 107.7  
   1.260	 109.9  
   1.280	 112.0  
   1.300	 113.8  
   1.320	 115.8  
   1.340	 117.7  
   1.360	 119.5  
   1.380	 121.3  
   1.400	 123.6  
   1.420	 125.5  
   1.440	 127.9  
   1.460	 129.7  
   1.480	 132.0  
   1.500	 134.0  
   1.520	 136.3  
   1.540	 138.4  
   1.560	 140.9  
   1.580	 143.3  
   1.600	 145.6  
   1.620	 148.2  
   1.640	 150.8  
   1.660	 153.3  
   1.680	 155.9  
   1.700	 158.6  
   1.720	 161.5  
   1.740	 164.3  
   1.760	 167.3  
   1.780	 170.4  
   1.800	 173.9  
   1.820	 177.1  
   1.840	 180.8  
   1.860	 184.1  
   1.880	 188.0  
   1.900	 191.5  
   1.920	 195.3  
   1.940	 199.0  
   1.960	 202.9  
   1.980	 207.1  
   2.000	 211.0  
   2.020	 215.0  
   2.040	 219.1  
   2.060	 223.3  
   2.080	 227.4  
   2.100	 231.7  
   2.120	 236.1  
   2.140	 240.7  
   2.160	 244.8  
   2.180	 249.2  
   2.200	 253.7  
   2.220	 258.6  
   2.240	 263.0  
   2.260	 267.3  
   2.280	 272.0  
   2.300	 276.4  
   2.320	 281.0  
   2.340	 285.3  
   2.360	 290.5  
   2.380	 295.1  
   2.400	 300.0  
   2.420	 304.6  
   2.440	 309.9  
   2.460	 314.5  
   2.480	 319.4  
   2.500	 324.4  
   2.520	 329.5  
   2.540	 334.7  
   2.560	 340.3  
   2.580	 345.4  
   2.600	 350.7  
   2.620	 356.2  
   2.640	 361.6  
   2.660	 366.9  
   2.680	 372.6  
   2.700	 378.1  
   2.720	 383.6  
   2.740	 388.9  
   2.760	 394.3  
   2.780	 400.2  
   2.800	 405.9  
   2.820	 411.4  
   2.840	 416.9  
   2.860	 423.0  
   2.880	 428.2  
   2.900	 434.6  
   2.920	 440.1  
   2.940	 446.5  
   2.960	 452.0  
   2.980	 457.7  
   3.000	 463.5  
   3.020	 469.3  
   3.040	 475.7  
   3.060	 481.7  
   3.080	 487.3  
   3.100	 493.7  
   3.120	 499.7  
   3.140	 505.7  
   3.160	 512.5  
   3.180	 518.6  
   3.200	 524.9  
   3.220	 531.2  
   3.240	 537.4  
   3.260	 544.2  
   3.280	 551.5  
   3.300	 558.2  
   3.320	 564.9  
   3.340	 572.6  
   3.360	 579.5  
   3.380	 586.6  
   3.400	 593.8  
   3.420	 601.2  
   3.440	 609.1  
   3.460	 616.4  
   3.480	 623.8  
   3.500	 631.6  
   3.520	 638.9  
   3.540	 646.2  
   3.560	 653.4  
   3.580	 660.8  
   3.600	 668.9  
   3.620	 676.0  
   3.640	 684.0  
   3.660	 691.0  
   3.680	 698.5  
   3.700	 705.7  
   3.720	 713.2  
   3.740	 721.3  
   3.760	 728.8  
   3.780	 736.1  
   3.800	 743.9  
   3.820	 751.1  
   3.840	 758.4  
   3.860	 766.0  
   3.880	 773.2  
   3.900	 780.6  
   3.920	 787.7  
   3.940	 795.5  
   3.960	 802.6  
   3.980	 809.6  
   4.000	 816.6  
   4.020	 824.6  
   4.040	 831.4  
   4.060	 838.6  
   4.080	 845.7  
   4.100	 853.6  
   4.120	 860.3  
   4.140	 867.8  
   4.160	 874.1  
   4.180	 881.7  
   4.200	 888.8  
   4.220	 895.6  
   4.240	 902.7  
   4.260	 910.1  
   4.280	 917.0  
   4.300	 923.9  
   4.320	 931.4  
   4.340	 938.4  
   4.360	 945.1  
   4.380	 952.9  
   4.400	 959.8  
   4.420	 966.7  
   4.440	 973.9  
   4.460	 981.4  
   4.480	 988.4  
   4.500	 995.4  
   4.520	1002    
   4.540	1010    
   4.560	1017    
   4.580	1024    
   4.600	1031    
   4.620	1038    
   4.640	1045    
   4.660	1051    
   4.680	1059    
   4.700	1066    
   4.720	1072    
   4.740	1079    
   4.760	1087    
   4.780	1094    
   4.800	1100    
   4.820	1107    
   4.840	1114    
   4.860	1121    
   4.880	1128    
   4.900	1135    
   4.920	1141    
   4.940	1148    
   4.960	1156    
   4.980	1162    
   5.000	1169    
   5.020	1176    
   5.040	1184    
   5.060	1191    
   5.080	1198    
   5.100	1206    
   5.120	1213    
   5.140	1220    
   5.160	1227    
   5.180	1234    
   5.200	1241    
   5.220	1248    
   5.240	1255    
   5.260	1263    
   5.280	1270    
   5.300	1277    
   5.320	1284    
   5.340	1291    
   5.360	1298    
   5.380	1305    
   5.400	1312    
   5.420	1319    
   5.440	1326    
   5.460	1333    
   5.480	1340    
   5.500	1347    
   5.520	1354    
   5.540	1361    
   5.560	1368    
   5.580	1375    
   5.600	1382    
   5.620	1389    
   5.640	1396    
   5.660	1403    
   5.680	1409    
   5.700	1416    
   5.720	1423    
   5.740	1429    
   5.760	1437    
   5.780	1443    
   5.800	1450    
   5.820	1457    
   5.840	1463    
   5.860	1470    
   5.880	1476    
   5.900	1483    
   5.920	1490    
   5.940	1496    
   5.960	1503    
   5.980	1509    
   6.000	1516    
   6.020	1522    
   6.040	1529    
   6.060	1536    
   6.080	1542    
   6.100	1549    
   6.120	1556    
   6.140	1562    
   6.160	1569    
   6.180	1576    
   6.200	1582    
   6.220	1589    
   6.240	1596    
   6.260	1602    
   6.280	1609    
   6.300	1615    
   6.320	1621    
   6.340	1627    
   6.360	1633    
   6.380	1640    
   6.400	1646    
   6.420	1652    
   6.440	1658    
   6.460	1659    
   6.480	1654    
   6.500	1654    
   6.520	1657    
   6.540	1661    
   6.560	1666    
   6.580	1671    
   6.600	1678    
   6.620	1684    
   6.640	1690    
   6.660	1696    
   6.680	1702    
   6.700	1708    
   6.720	1715    
   6.740	1721    
   6.760	1726    
   6.780	1733    
   6.800	1739    
   6.820	1745    
   6.840	1750    
   6.860	1756    
   6.880	1762    
   6.900	1768    
   6.920	1773    
   6.940	1779    
   6.960	1784    
   6.980	1790    
   7.000	1795    
   7.020	1800    
   7.040	1805    
   7.060	1811    
   7.080	1815    
   7.100	1821    
   7.120	1825    
   7.140	1829    
   7.160	1832    
   7.180	1836    
   7.200	1838    
   7.220	1842    
   7.240	1844    
   7.260	1848    
   7.280	1851    
   7.300	1853    
   7.320	1856    
   7.340	1858    
   7.360	1857    

